Folder: FP_24/V44/Daten/UXD

Note: README.md
# AP_22
Anfängerpraktikum Physik (Jan Oppoli - Tom Engel)

| Datum       | Beschreibung| Status      |
| ----------- | ----------- | ----------- |
| 11.10.2022  | Übung 1     | Testiert    |
| 22.10.2022  | Übung 2     | Testiert    |
| 31.10.2022  | Übung 3     | Korrektur   |
| 15.11.2022  | Übung 4     | Korrektur   |
| 25.10.2022  | O           | Testiert    |
| 08.11.2022  | SE          | Testiert    |
| 15.11.2022  | W           | Testiert    |
| 22.11.2022  | V203        | Bereit      |
| 29.11.2022  | V207        | Bereit      |
| 06.12.2022  | V302        | Korrektur   |
| 13.12.2022  | V303        | Protokoll   |
| 20.12.2022  | V351        | Protokoll   |
| 10.01.2022  | V353        |             |
| 17.01.2022  | V101        |             |

File: Detektorscan2.UXD
; C:\DIFFDAT1\Praktikum\Boussard_Oppoli\Detektorscan2.raw(Diffrac Plus V1.01 file) converted by XCH V1.0
_FILEVERSION=2
_SITE='Deutschland'
_USER='Administrator'
_GONIOMETER_CODE=4885
; D8 Theta/Theta; Special
_SAMPLE_CHANGER_CODE=0
_ATTACHMENTS_CODE=0
_GONIOMETER_RADIUS=350
_FIXED_DIVSLIT=0.600000
_FIXED_SAMPLESLIT=0.000000
_FIXED_DETSLIT=11.66
_MONOCHROMATOR=0
; None
_THIN_FILM='N'
_BETA_FILTER='Y'
_FIXED_ANTISLIT=8.340000
_ANALYZER_CODE=0
; None
_DATEMEASURED='22-Apr-2024 10:12:18'
_WL_UNIT='A'
_WL1=1.540600
_WL2=1.544390
_WL3=1.392220
_WLRATIO=0.500000
_ANODE='Cu'
; (Data for Range number 1)
_DRIVE='2THETA'
_STEPTIME=1.000000
_STEPSIZE=0.008000
_STEPMODE='S'
_START=-0.200000
_THETA=0.000000
_2THETA=-0.200000
_KHI=0.000000
_PHI=92.46
_X=0.000000
_Y=0.000000
_Z=-15
_DIVERGENCE=0.000000
_ANTISCATTER=0.000000
_DETECTOR=5
_DETECTORSLIT='unkn'
_AUX1=0.000000
_AUX2=0.000000
_AUX3=0.000000
_TIMESTARTED=3.000000
_TEMP_RATE=-1.000000
_TEMP_DELAY=-1.000000
_KV=40
_MA=35
_RANGE_WL=1.540600
_3DPLANE=0
_GONIOMETER=-0.200000
_PSDCHANNEL0=0
_2THETACOUNTS
  -0.2000      4343
  -0.1920      4878
  -0.1840      5182
  -0.1760      5771
  -0.1680      6603
  -0.1600      7545
  -0.1520      8807
  -0.1440     10824
  -0.1360     12209
  -0.1280     14196
  -0.1200     17322
  -0.1120     20413
  -0.1040     26754
  -0.0960     36213
  -0.0880     47205
  -0.0800     63177
  -0.0720     90624
  -0.0640    129933
  -0.0560    179843
  -0.0480    265495
  -0.0400    301314
  -0.0320    327352
  -0.0240    344559
  -0.0160    383806
  -0.0080    434571
   0.0000    468912
   0.0080    457623
   0.0160    408296
   0.0240    315834
   0.0320    225079
   0.0400    151483
   0.0480    101061
   0.0560     86605
   0.0640     73683
   0.0720     57598
   0.0800     45307
   0.0880     38619
   0.0960     35211
   0.1040     28328
   0.1120     22630
   0.1200     19581
   0.1280     16023
   0.1360     14758
   0.1440     15493
   0.1520     14243
   0.1600     12670
   0.1680     12641
   0.1760      9726
   0.1840      5098
   0.1920      3342
   0.2000      2922

File: Detektorscan.UXD
; C:\DIFFDAT1\Praktikum\Boussard_Oppoli\Detektorscan.raw(Diffrac Plus V1.01 file) converted by XCH V1.0
_FILEVERSION=2
_SITE='Deutschland'
_USER='Administrator'
_GONIOMETER_CODE=4885
; D8 Theta/Theta; Special
_SAMPLE_CHANGER_CODE=0
_ATTACHMENTS_CODE=0
_GONIOMETER_RADIUS=350
_FIXED_DIVSLIT=0.600000
_FIXED_SAMPLESLIT=0.000000
_FIXED_DETSLIT=11.66
_MONOCHROMATOR=0
; None
_THIN_FILM='N'
_BETA_FILTER='Y'
_FIXED_ANTISLIT=8.340000
_ANALYZER_CODE=0
; None
_DATEMEASURED='22-Apr-2024 10:01:31'
_WL_UNIT='A'
_WL1=1.540600
_WL2=1.544390
_WL3=1.392220
_WLRATIO=0.500000
_ANODE='Cu'
; (Data for Range number 1)
_DRIVE='2THETA'
_STEPTIME=1.000000
_STEPSIZE=0.002000
_STEPMODE='S'
_START=-0.100000
_THETA=0.000000
_2THETA=-0.100000
_KHI=0.000000
_PHI=92.46
_X=0.000000
_Y=0.000000
_Z=-15
_DIVERGENCE=0.000000
_ANTISCATTER=0.000000
_DETECTOR=5
_DETECTORSLIT='unkn'
_AUX1=0.000000
_AUX2=0.000000
_AUX3=0.000000
_TIMESTARTED=2.000000
_TEMP_RATE=-1.000000
_TEMP_DELAY=-1.000000
_KV=40
_MA=35
_RANGE_WL=1.540600
_3DPLANE=0
_GONIOMETER=-0.100000
_PSDCHANNEL0=0
_2THETACOUNTS
  -0.1000     21203
  -0.0980     21240
  -0.0960     22501
  -0.0940     23815
  -0.0920     25492
  -0.0900     27602
  -0.0880     29218
  -0.0860     31737
  -0.0840     34053
  -0.0820     37122
  -0.0800     39510
  -0.0780     41579
  -0.0760     45029
  -0.0740     48210
  -0.0720     51154
  -0.0700     55067
  -0.0680     59331
  -0.0660     64291
  -0.0640     69925
  -0.0620     76621
  -0.0600     84152
  -0.0580     91899
  -0.0560    100771
  -0.0540    109612
  -0.0520    120786
  -0.0500    131321
  -0.0480    143392
  -0.0460    155197
  -0.0440    168208
  -0.0420    182906
  -0.0400    194967
  -0.0380    234330
  -0.0360    239338
  -0.0340    252302
  -0.0320    270962
  -0.0300    284645
  -0.0280    294670
  -0.0260    304537
  -0.0240    316213
  -0.0220    321088
  -0.0200    323955
  -0.0180    326096
  -0.0160    329359
  -0.0140    335118
  -0.0120    340711
  -0.0100    347023
  -0.0080    357846
  -0.0060    365422
  -0.0040    377470
  -0.0020    392061
   0.0000    404543
   0.0020    418234
   0.0040    429033
   0.0060    438466
   0.0080    454060
   0.0100    461028
   0.0120    465895
   0.0140    470066
   0.0160    477105
   0.0180    470437
   0.0200    464583
   0.0220    457078
   0.0240    447717
   0.0260    439501
   0.0280    419727
   0.0300    405231
   0.0320    384264
   0.0340    365565
   0.0360    342686
   0.0380    314049
   0.0400    291471
   0.0420    270022
   0.0440    245864
   0.0460    225253
   0.0480    201569
   0.0500    185484
   0.0520    169842
   0.0540    154619
   0.0560    128796
   0.0580    124894
   0.0600    115892
   0.0620    107607
   0.0640    100229
   0.0660     94473
   0.0680     90356
   0.0700     86412
   0.0720     83324
   0.0740     80607
   0.0760     77045
   0.0780     72842
   0.0800     69185
   0.0820     65570
   0.0840     61425
   0.0860     57847
   0.0880     53832
   0.0900     50633
   0.0920     47850
   0.0940     45056
   0.0960     43070
   0.0980     41286
   0.1000     40370

File: MessungProbe.UXD
; C:\DIFFDAT1\Praktikum\Boussard_Oppoli\MessungProbe.raw(Diffrac Plus V1.01 file) converted by XCH V1.0
_FILEVERSION=2
_SITE='Deutschland'
_USER='Administrator'
_GONIOMETER_CODE=4885
; D8 Theta/Theta; Special
_SAMPLE_CHANGER_CODE=0
_ATTACHMENTS_CODE=0
_GONIOMETER_RADIUS=350
_FIXED_DIVSLIT=0.600000
_FIXED_SAMPLESLIT=0.000000
_FIXED_DETSLIT=11.66
_MONOCHROMATOR=0
; None
_THIN_FILM='N'
_BETA_FILTER='Y'
_FIXED_ANTISLIT=8.340000
_ANALYZER_CODE=0
; None
_DATEMEASURED='22-Apr-2024 11:11:20'
_WL_UNIT='A'
_WL1=1.540600
_WL2=1.544390
_WL3=1.392220
_WLRATIO=0.500000
_ANODE='Cu'
; (Data for Range number 1)
_DRIVE='THETA'
_STEPTIME=5.000660
_STEPSIZE=0.005000
_STEPMODE='C'
_START=0.000000
_THETA=0.000000
_2THETA=0.000000
_KHI=0.000000
_PHI=92.46
_X=-0.513000
_Y=-1.200000
_Z=0.238000
_DIVERGENCE=0.000000
_ANTISCATTER=0.000000
_DETECTOR=5
_DETECTORSLIT='unkn'
_AUX1=0.000000
_AUX2=0.000000
_AUX3=0.000000
_TIMESTARTED=3.000000
_TEMP_RATE=-1.000000
_TEMP_DELAY=-1.000000
_KV=40
_MA=35
_RANGE_WL=1.540600
_3DPLANE=0
_GONIOMETER=-0.002400
_PSDCHANNEL0=0
_2THETACOUNTS
   0.0000   1222960
   0.0100   1687960
   0.0200    924426
   0.0300    552641
   0.0400    443451
   0.0500    428098
   0.0600    424132
   0.0700    450474
   0.0800    491517
   0.0900    522818
   0.1000    546124
   0.1100    589555
   0.1200    632744
   0.1300    674621
   0.1400    715090
   0.1500    751023
   0.1600    740712
   0.1700    744582
   0.1800    786968
   0.1900    816347
   0.2000    864532
   0.2100    819128
   0.2200    732105
   0.2300    467521
   0.2400    194684
   0.2500    102266
   0.2600    109702
   0.2700     93195
   0.2800     49174
   0.2900     26857
   0.3000     34842
   0.3100     41005
   0.3200     29022
   0.3300     14511
   0.3400     12625
   0.3500     18423
   0.3600     19230
   0.3700     12952
   0.3800      6647
   0.3900      6935
   0.4000     10353
   0.4100     10192
   0.4200      6826
   0.4300      3773
   0.4400      4112
   0.4500      5831
   0.4600      5987
   0.4700      3972
   0.4800      2284
   0.4900      2365
   0.5000      3447
   0.5100      3547
   0.5200      2558
   0.5300      1496
   0.5400      1388
   0.5500      1996
   0.5600      2277
   0.5700      1786
   0.5800      1021
   0.5900       850
   0.6000      1201
   0.6100      1420
   0.6200      1256
   0.6300       742
   0.6400       518
   0.6500       724
   0.6600      1033
   0.6700       942
   0.6800       561
   0.6900       399
   0.7000       478
   0.7100       712
   0.7200       694
   0.7300       466
   0.7400       292
   0.7500       335
   0.7600       414
   0.7700       482
   0.7800       365
   0.7900       224
   0.8000       216
   0.8100       270
   0.8200       321
   0.8300       289
   0.8400       176
   0.8500       139
   0.8600       184
   0.8700       222
   0.8800       202
   0.8900       142
   0.9000       102
   0.9100       121
   0.9200       149
   0.9300       153
   0.9400       126
   0.9500        82
   0.9600        73
   0.9700       104
   0.9800       133
   0.9900       121
   1.0000        74
   1.0100        59
   1.0200        74
   1.0300        95
   1.0400        80
   1.0500        54
   1.0600        44
   1.0700        43
   1.0800        85
   1.0900        91
   1.1000        50
   1.1100        27
   1.1200        23
   1.1300        35
   1.1400        47
   1.1500        27
   1.1600        21
   1.1700        21
   1.1800        25
   1.1900        37
   1.2000        34
   1.2100        25
   1.2200        18
   1.2300        21
   1.2400        23
   1.2500        22
   1.2600        24
   1.2700        18
   1.2800        10
   1.2900        16
   1.3000        20
   1.3100        20
   1.3200        10
   1.3300        15
   1.3400        13
   1.3500        12
   1.3600        11
   1.3700        11
   1.3800        17
   1.3900        11
   1.4000        12
   1.4100        14
   1.4200        11
   1.4300        11
   1.4400         3
   1.4500         6
   1.4600        13
   1.4700         4
   1.4800         4
   1.4900         7
   1.5000         7
   1.5100         3
   1.5200         8
   1.5300         2
   1.5400         2
   1.5500         8
   1.5600         7
   1.5700         4
   1.5800         5
   1.5900         6
   1.6000         0
   1.6100         3
   1.6200         2
   1.6300         2
   1.6400         4
   1.6500         1
   1.6600         5
   1.6700         7
   1.6800         2
   1.6900         1
   1.7000         2
   1.7100         0
   1.7200         4
   1.7300         4
   1.7400         2
   1.7500         3
   1.7600         2
   1.7700         3
   1.7800         0
   1.7900         1
   1.8000         0
   1.8100         4
   1.8200         3
   1.8300         0
   1.8400         2
   1.8500         2
   1.8600         1
   1.8700         3
   1.8800         0
   1.8900         0
   1.9000         2
   1.9100         0
   1.9200         0
   1.9300         1
   1.9400         0
   1.9500         2
   1.9600         1
   1.9700         2
   1.9800         4
   1.9900         1
   2.0000         0
   2.0100         1
   2.0200         0
   2.0300         3
   2.0400         1
   2.0500         1
   2.0600         0
   2.0700         0
   2.0800         0
   2.0900         1
   2.1000         0
   2.1100         1
   2.1200         1
   2.1300         0
   2.1400         0
   2.1500         1
   2.1600         0
   2.1700         1
   2.1800         0
   2.1900         1
   2.2000         0
   2.2100         1
   2.2200         0
   2.2300         1
   2.2400         0
   2.2500         2
   2.2600         0
   2.2700         0
   2.2800         0
   2.2900         1
   2.3000         0
   2.3100         1
   2.3200         2
   2.3300         1
   2.3400         1
   2.3500         0
   2.3600         2
   2.3700         0
   2.3800         1
   2.3900         1
   2.4000         0
   2.4100         0
   2.4200         0
   2.4300         1
   2.4400         0
   2.4500         0
   2.4600         0
   2.4700         0
   2.4800         1
   2.4900         0
   2.5000         0

File: MessungProbeDiffus.UXD
; C:\DIFFDAT1\Praktikum\Boussard_Oppoli\MessungProbeDiffus.raw(Diffrac Plus V1.01 file) converted by XCH V1.0
_FILEVERSION=2
_SITE='Deutschland'
_USER='Administrator'
_GONIOMETER_CODE=4885
; D8 Theta/Theta; Special
_SAMPLE_CHANGER_CODE=0
_ATTACHMENTS_CODE=0
_GONIOMETER_RADIUS=350
_FIXED_DIVSLIT=0.600000
_FIXED_SAMPLESLIT=0.000000
_FIXED_DETSLIT=11.66
_MONOCHROMATOR=0
; None
_THIN_FILM='N'
_BETA_FILTER='Y'
_FIXED_ANTISLIT=8.340000
_ANALYZER_CODE=0
; None
_DATEMEASURED='22-Apr-2024 11:58:23'
_WL_UNIT='A'
_WL1=1.540600
_WL2=1.544390
_WL3=1.392220
_WLRATIO=0.500000
_ANODE='Cu'
; (Data for Range number 1)
_DRIVE='THETA'
_STEPTIME=5.000660
_STEPSIZE=0.005000
_STEPMODE='C'
_START=0.000000
_THETA=0.000000
_2THETA=0.100000
_KHI=0.000000
_PHI=92.46
_X=-0.513000
_Y=-1.200000
_Z=0.238000
_DIVERGENCE=0.000000
_ANTISCATTER=0.000000
_DETECTOR=5
_DETECTORSLIT='unkn'
_AUX1=0.000000
_AUX2=0.000000
_AUX3=0.000000
_TIMESTARTED=2.000000
_TEMP_RATE=-1.000000
_TEMP_DELAY=-1.000000
_KV=40
_MA=35
_RANGE_WL=1.540600
_3DPLANE=0
_GONIOMETER=0.097500
_PSDCHANNEL0=0
_2THETACOUNTS
   0.0000    152956
   0.0100    100096
   0.0200     79578
   0.0300     69852
   0.0400     47439
   0.0500     26696
   0.0600     28679
   0.0700     28539
   0.0800     28916
   0.0900     23121
   0.1000     20894
   0.1100     18685
   0.1200     12698
   0.1300      9757
   0.1400      8026
   0.1500      6296
   0.1600      5302
   0.1700      4670
   0.1800      4247
   0.1900      3514
   0.2000      2715
   0.2100      2059
   0.2200      1533
   0.2300      1037
   0.2400       763
   0.2500       461
   0.2600       332
   0.2700       257
   0.2800       239
   0.2900       175
   0.3000       162
   0.3100       135
   0.3200       140
   0.3300       133
   0.3400       110
   0.3500        71
   0.3600        81
   0.3700        72
   0.3800        61
   0.3900        53
   0.4000        58
   0.4100        50
   0.4200        44
   0.4300        44
   0.4400        55
   0.4500        31
   0.4600        32
   0.4700        32
   0.4800        27
   0.4900        34
   0.5000        32
   0.5100        28
   0.5200        18
   0.5300        19
   0.5400        16
   0.5500        16
   0.5600        20
   0.5700        24
   0.5800        14
   0.5900        17
   0.6000        18
   0.6100         7
   0.6200        16
   0.6300        18
   0.6400        15
   0.6500        23
   0.6600        15
   0.6700        14
   0.6800         8
   0.6900        11
   0.7000        14
   0.7100         3
   0.7200         5
   0.7300        10
   0.7400        13
   0.7500        10
   0.7600         8
   0.7700         8
   0.7800        13
   0.7900         9
   0.8000         6
   0.8100        10
   0.8200         3
   0.8300         7
   0.8400         4
   0.8500        10
   0.8600         7
   0.8700         3
   0.8800         2
   0.8900         5
   0.9000        10
   0.9100         4
   0.9200         5
   0.9300         3
   0.9400         7
   0.9500         5
   0.9600         3
   0.9700         3
   0.9800         6
   0.9900         4
   1.0000         2
   1.0100         4
   1.0200         1
   1.0300         0
   1.0400         3
   1.0500         0
   1.0600         2
   1.0700         3
   1.0800         2
   1.0900         3
   1.1000         1
   1.1100         2
   1.1200         0
   1.1300         1
   1.1400         1
   1.1500         0
   1.1600         1
   1.1700         0
   1.1800         4
   1.1900         1
   1.2000         0
   1.2100         2
   1.2200         0
   1.2300         2
   1.2400         1
   1.2500         2
   1.2600         1
   1.2700         2
   1.2800         3
   1.2900         1
   1.3000         0
   1.3100         0
   1.3200         1
   1.3300         1
   1.3400         2
   1.3500         1
   1.3600         1
   1.3700         0
   1.3800         1
   1.3900         0
   1.4000         0
   1.4100         0
   1.4200         1
   1.4300         2
   1.4400         0
   1.4500         0
   1.4600         0
   1.4700         0
   1.4800         1
   1.4900         0
   1.5000         0
   1.5100         0
   1.5200         0
   1.5300         1
   1.5400         1
   1.5500         0
   1.5600         0
   1.5700         0
   1.5800         1
   1.5900         0
   1.6000         0
   1.6100         0
   1.6200         0
   1.6300         0
   1.6400         1
   1.6500         1
   1.6600         0
   1.6700         1
   1.6800         0
   1.6900         1
   1.7000         0
   1.7100         1
   1.7200         0
   1.7300         1
   1.7400         0
   1.7500         0
   1.7600         0
   1.7700         0
   1.7800         1
   1.7900         0
   1.8000         0
   1.8100         0
   1.8200         0
   1.8300         0
   1.8400         0
   1.8500         0
   1.8600         0
   1.8700         1
   1.8800         0
   1.8900         0
   1.9000         1
   1.9100         0
   1.9200         1
   1.9300         0
   1.9400         0
   1.9500         1
   1.9600         0
   1.9700         0
   1.9800         0
   1.9900         0
   2.0000         0
   2.0100         0
   2.0200         0
   2.0300         0
   2.0400         0
   2.0500         0
   2.0600         0
   2.0700         0
   2.0800         0
   2.0900         1
   2.1000         0
   2.1100         0
   2.1200         0
   2.1300         0
   2.1400         0
   2.1500         0
   2.1600         0
   2.1700         0
   2.1800         0
   2.1900         0
   2.2000         0
   2.2100         0
   2.2200         0
   2.2300         0
   2.2400         1
   2.2500         1
   2.2600         0
   2.2700         0
   2.2800         0
   2.2900         0
   2.3000         0
   2.3100         0
   2.3200         0
   2.3300         0
   2.3400         0
   2.3500         0
   2.3600         1
   2.3700         0
   2.3800         0
   2.3900         0
   2.4000         0
   2.4100         0
   2.4200         0
   2.4300         0
   2.4400         0
   2.4500         0
   2.4600         0
   2.4700         0
   2.4800         0
   2.4900         0
   2.5000         0

File: Rockingscan2.UXD
; C:\DIFFDAT1\Praktikum\Boussard_Oppoli\Rockingscan2.raw(Diffrac Plus V1.01 file) converted by XCH V1.0
_FILEVERSION=2
_SITE='Deutschland'
_USER='Administrator'
_GONIOMETER_CODE=4885
; D8 Theta/Theta; Special
_SAMPLE_CHANGER_CODE=0
_ATTACHMENTS_CODE=0
_GONIOMETER_RADIUS=350
_FIXED_DIVSLIT=0.600000
_FIXED_SAMPLESLIT=0.000000
_FIXED_DETSLIT=11.66
_MONOCHROMATOR=0
; None
_THIN_FILM='N'
_BETA_FILTER='Y'
_FIXED_ANTISLIT=8.340000
_ANALYZER_CODE=0
; None
_DATEMEASURED='22-Apr-2024 10:28:28'
_WL_UNIT='A'
_WL1=1.540600
_WL2=1.544390
_WL3=1.392220
_WLRATIO=0.500000
_ANODE='Cu'
; (Data for Range number 1)
_DRIVE='THETA'
_STEPTIME=1.000000
_STEPSIZE=0.020000
_STEPMODE='S'
_START=-0.300000
_THETA=-0.300000
_2THETA=0.000000
_KHI=0.000000
_PHI=92.46
_X=-0.513000
_Y=0.000000
_Z=0.240000
_DIVERGENCE=0.000000
_ANTISCATTER=0.000000
_DETECTOR=5
_DETECTORSLIT='unkn'
_AUX1=0.000000
_AUX2=0.000000
_AUX3=0.000000
_TIMESTARTED=3.000000
_TEMP_RATE=-1.000000
_TEMP_DELAY=-1.000000
_KV=40
_MA=35
_RANGE_WL=1.540600
_3DPLANE=0
_GONIOMETER=0.000000
_PSDCHANNEL0=0
_2THETACOUNTS
  -0.3000     28855
  -0.2800     33167
  -0.2600     47473
  -0.2400     60964
  -0.2200     74253
  -0.2000     86644
  -0.1800     98077
  -0.1600    110228
  -0.1400    121706
  -0.1200    133379
  -0.1000    145070
  -0.0800    155983
  -0.0600    166804
  -0.0400    177491
  -0.0200    187692
   0.0000    230293
   0.0200    217771
   0.0400    207786
   0.0600    194024
   0.0800    184536
   0.1000    172994
   0.1200    163483
   0.1400    154327
   0.1600    148713
   0.1800    133373
   0.2000    124918
   0.2200    115555
   0.2400    104842
   0.2600     95773
   0.2800     85895
   0.3000     74432

File: Rockingscan3.UXD
; C:\DIFFDAT1\Praktikum\Boussard_Oppoli\Rockingscan3.raw(Diffrac Plus V1.01 file) converted by XCH V1.0
_FILEVERSION=2
_SITE='Deutschland'
_USER='Administrator'
_GONIOMETER_CODE=4885
; D8 Theta/Theta; Special
_SAMPLE_CHANGER_CODE=0
_ATTACHMENTS_CODE=0
_GONIOMETER_RADIUS=350
_FIXED_DIVSLIT=0.600000
_FIXED_SAMPLESLIT=0.000000
_FIXED_DETSLIT=11.66
_MONOCHROMATOR=0
; None
_THIN_FILM='N'
_BETA_FILTER='Y'
_FIXED_ANTISLIT=8.340000
_ANALYZER_CODE=0
; None
_DATEMEASURED='22-Apr-2024 10:35:34'
_WL_UNIT='A'
_WL1=1.540600
_WL2=1.544390
_WL3=1.392220
_WLRATIO=0.500000
_ANODE='Cu'
; (Data for Range number 1)
_DRIVE='THETA'
_STEPTIME=1.000000
_STEPSIZE=0.020000
_STEPMODE='S'
_START=-0.300000
_THETA=-0.300000
_2THETA=0.000000
_KHI=0.000000
_PHI=92.46
_X=-0.513000
_Y=0.100000
_Z=0.240000
_DIVERGENCE=0.000000
_ANTISCATTER=0.000000
_DETECTOR=5
_DETECTORSLIT='unkn'
_AUX1=0.000000
_AUX2=0.000000
_AUX3=0.000000
_TIMESTARTED=2.000000
_TEMP_RATE=-1.000000
_TEMP_DELAY=-1.000000
_KV=40
_MA=35
_RANGE_WL=1.540600
_3DPLANE=0
_GONIOMETER=0.000000
_PSDCHANNEL0=0
_2THETACOUNTS
  -0.3000     27008
  -0.2800     32101
  -0.2600     45862
  -0.2400     59558
  -0.2200     72057
  -0.2000     84761
  -0.1800     95757
  -0.1600    108265
  -0.1400    119057
  -0.1200    131148
  -0.1000    141166
  -0.0800    152490
  -0.0600    163103
  -0.0400    174011
  -0.0200    185338
   0.0000    199917
   0.0200    199620
   0.0400    192107
   0.0600    182850
   0.0800    174179
   0.1000    165743
   0.1200    157083
   0.1400    148998
   0.1600    141327
   0.1800    132502
   0.2000    122810
   0.2200    114191
   0.2400    105294
   0.2600     95137
   0.2800     85124
   0.3000     74884

File: Rockingscan4.UXD
; C:\DIFFDAT1\Praktikum\Boussard_Oppoli\Rockingscan4.raw(Diffrac Plus V1.01 file) converted by XCH V1.0
_FILEVERSION=2
_SITE='Deutschland'
_USER='Administrator'
_GONIOMETER_CODE=4885
; D8 Theta/Theta; Special
_SAMPLE_CHANGER_CODE=0
_ATTACHMENTS_CODE=0
_GONIOMETER_RADIUS=350
_FIXED_DIVSLIT=0.600000
_FIXED_SAMPLESLIT=0.000000
_FIXED_DETSLIT=11.66
_MONOCHROMATOR=0
; None
_THIN_FILM='N'
_BETA_FILTER='Y'
_FIXED_ANTISLIT=8.340000
_ANALYZER_CODE=0
; None
_DATEMEASURED='22-Apr-2024 10:37:01'
_WL_UNIT='A'
_WL1=1.540600
_WL2=1.544390
_WL3=1.392220
_WLRATIO=0.500000
_ANODE='Cu'
; (Data for Range number 1)
_DRIVE='THETA'
_STEPTIME=1.000000
_STEPSIZE=0.020000
_STEPMODE='S'
_START=-0.300000
_THETA=-0.300000
_2THETA=0.000000
_KHI=0.000000
_PHI=92.46
_X=-0.513000
_Y=1.000000
_Z=0.240000
_DIVERGENCE=0.000000
_ANTISCATTER=0.000000
_DETECTOR=5
_DETECTORSLIT='unkn'
_AUX1=0.000000
_AUX2=0.000000
_AUX3=0.000000
_TIMESTARTED=3.000000
_TEMP_RATE=-1.000000
_TEMP_DELAY=-1.000000
_KV=40
_MA=35
_RANGE_WL=1.540600
_3DPLANE=0
_GONIOMETER=0.000000
_PSDCHANNEL0=0
_2THETACOUNTS
  -0.3000     17983
  -0.2800     22652
  -0.2600     37090
  -0.2400     52199
  -0.2200     66523
  -0.2000     80129
  -0.1800     92645
  -0.1600    105746
  -0.1400    118550
  -0.1200    129842
  -0.1000    142373
  -0.0800    155217
  -0.0600    166499
  -0.0400    177809
  -0.0200    189206
   0.0000    231897
   0.0200    215536
   0.0400    207099
   0.0600    200131
   0.0800    188755
   0.1000    180073
   0.1200    169779
   0.1400    159967
   0.1600    153963
   0.1800    149739
   0.2000    136161
   0.2200    128051
   0.2400    119567
   0.2600    110779
   0.2800    101701
   0.3000     93908

File: Rockingscan5.UXD
; C:\DIFFDAT1\Praktikum\Boussard_Oppoli\Rockingscan5.raw(Diffrac Plus V1.01 file) converted by XCH V1.0
_FILEVERSION=2
_SITE='Deutschland'
_USER='Administrator'
_GONIOMETER_CODE=4885
; D8 Theta/Theta; Special
_SAMPLE_CHANGER_CODE=0
_ATTACHMENTS_CODE=0
_GONIOMETER_RADIUS=350
_FIXED_DIVSLIT=0.600000
_FIXED_SAMPLESLIT=0.000000
_FIXED_DETSLIT=11.66
_MONOCHROMATOR=0
; None
_THIN_FILM='N'
_BETA_FILTER='Y'
_FIXED_ANTISLIT=8.340000
_ANALYZER_CODE=0
; None
_DATEMEASURED='22-Apr-2024 10:38:20'
_WL_UNIT='A'
_WL1=1.540600
_WL2=1.544390
_WL3=1.392220
_WLRATIO=0.500000
_ANODE='Cu'
; (Data for Range number 1)
_DRIVE='THETA'
_STEPTIME=1.000000
_STEPSIZE=0.020000
_STEPMODE='S'
_START=-0.300000
_THETA=-0.300000
_2THETA=0.000000
_KHI=0.000000
_PHI=92.46
_X=-0.513000
_Y=-1.000000
_Z=0.240000
_DIVERGENCE=0.000000
_ANTISCATTER=0.000000
_DETECTOR=5
_DETECTORSLIT='unkn'
_AUX1=0.000000
_AUX2=0.000000
_AUX3=0.000000
_TIMESTARTED=2.000000
_TEMP_RATE=-1.000000
_TEMP_DELAY=-1.000000
_KV=40
_MA=35
_RANGE_WL=1.540600
_3DPLANE=0
_GONIOMETER=0.000000
_PSDCHANNEL0=0
_2THETACOUNTS
  -0.3000     46932
  -0.2800     51271
  -0.2600     63521
  -0.2400     75190
  -0.2200     87177
  -0.2000     97749
  -0.1800    108595
  -0.1600    118942
  -0.1400    129274
  -0.1200    139731
  -0.1000    149724
  -0.0800    160693
  -0.0600    169945
  -0.0400    179805
  -0.0200    190483
   0.0000    227307
   0.0200    209255
   0.0400    198875
   0.0600    183620
   0.0800    172955
   0.1000    161286
   0.1200    155018
   0.1400    137918
   0.1600    128947
   0.1800    118716
   0.2000    108336
   0.2200     98000
   0.2400     86222
   0.2600     75104
   0.2800     63342
   0.3000     50007