Folder: FP_24/V44/Daten/UXD (part 2)

File: Rockingscan6_final2.UXD
; C:\DIFFDAT1\Praktikum\Boussard_Oppoli\Rockingscan6_final2.raw(Diffrac Plus V1.01 file) converted by XCH V1.0
_FILEVERSION=2
_SITE='Deutschland'
_USER='Administrator'
_GONIOMETER_CODE=4885
; D8 Theta/Theta; Special
_SAMPLE_CHANGER_CODE=0
_ATTACHMENTS_CODE=0
_GONIOMETER_RADIUS=350
_FIXED_DIVSLIT=0.600000
_FIXED_SAMPLESLIT=0.000000
_FIXED_DETSLIT=11.66
_MONOCHROMATOR=0
; None
_THIN_FILM='N'
_BETA_FILTER='Y'
_FIXED_ANTISLIT=8.340000
_ANALYZER_CODE=0
; None
_DATEMEASURED='22-Apr-2024 10:57:14'
_WL_UNIT='A'
_WL1=1.540600
_WL2=1.544390
_WL3=1.392220
_WLRATIO=0.500000
_ANODE='Cu'
; (Data for Range number 1)
_DRIVE='THETA'
_STEPTIME=1.000000
_STEPSIZE=0.040000
_STEPMODE='S'
_START=-1.000000
_THETA=-1.000000
_2THETA=0.000000
_KHI=0.000000
_PHI=92.46
_X=-0.513000
_Y=-1.200000
_Z=0.238000
_DIVERGENCE=0.000000
_ANTISCATTER=0.000000
_DETECTOR=5
_DETECTORSLIT='unkn'
_AUX1=0.000000
_AUX2=0.000000
_AUX3=0.000000
_TIMESTARTED=3.000000
_TEMP_RATE=-1.000000
_TEMP_DELAY=-1.000000
_KV=40
_MA=35
_RANGE_WL=1.540600
_3DPLANE=0
_GONIOMETER=0.000000
_PSDCHANNEL0=0
_2THETACOUNTS
  -1.0000         0
  -0.9600         0
  -0.9200         1
  -0.8800         0
  -0.8400         1
  -0.8000         1
  -0.7600         2
  -0.7200         5
  -0.6800         2
  -0.6400        15
  -0.6000        18
  -0.5600        49
  -0.5200        87
  -0.4800       129
  -0.4400       403
  -0.4000      6450
  -0.3600     22826
  -0.3200     47220
  -0.2800     71494
  -0.2400     93375
  -0.2000    114158
  -0.1600    134487
  -0.1200    153788
  -0.0800    173075
  -0.0400    192570
   0.0000    233034
   0.0400    194459
   0.0800    171975
   0.1200    155167
   0.1600    127190
   0.2000    107688
   0.2400     84705
   0.2800     60825
   0.3200     34887
   0.3600     14652
   0.4000      2624
   0.4400       196
   0.4800       105
   0.5200        66
   0.5600        46
   0.6000        40
   0.6400        26
   0.6800        13
   0.7200         3
   0.7600         3
   0.8000         1
   0.8400         2
   0.8800         0
   0.9200         2
   0.9600         1
   1.0000         0

File: Rockingscan6_final.UXD
; C:\DIFFDAT1\Praktikum\Boussard_Oppoli\Rockingscan6_final.raw(Diffrac Plus V1.01 file) converted by XCH V1.0
_FILEVERSION=2
_SITE='Deutschland'
_USER='Administrator'
_GONIOMETER_CODE=4885
; D8 Theta/Theta; Special
_SAMPLE_CHANGER_CODE=0
_ATTACHMENTS_CODE=0
_GONIOMETER_RADIUS=350
_FIXED_DIVSLIT=0.600000
_FIXED_SAMPLESLIT=0.000000
_FIXED_DETSLIT=11.66
_MONOCHROMATOR=0
; None
_THIN_FILM='N'
_BETA_FILTER='Y'
_FIXED_ANTISLIT=8.340000
_ANALYZER_CODE=0
; None
_DATEMEASURED='22-Apr-2024 10:40:08'
_WL_UNIT='A'
_WL1=1.540600
_WL2=1.544390
_WL3=1.392220
_WLRATIO=0.500000
_ANODE='Cu'
; (Data for Range number 1)
_DRIVE='THETA'
_STEPTIME=1.000000
_STEPSIZE=0.020000
_STEPMODE='S'
_START=-0.300000
_THETA=-0.300000
_2THETA=0.000000
_KHI=0.000000
_PHI=92.46
_X=-0.513000
_Y=-1.100000
_Z=0.240000
_DIVERGENCE=0.000000
_ANTISCATTER=0.000000
_DETECTOR=5
_DETECTORSLIT='unkn'
_AUX1=0.000000
_AUX2=0.000000
_AUX3=0.000000
_TIMESTARTED=3.000000
_TEMP_RATE=-1.000000
_TEMP_DELAY=-1.000000
_KV=40
_MA=35
_RANGE_WL=1.540600
_3DPLANE=0
_GONIOMETER=0.000000
_PSDCHANNEL0=0
_2THETACOUNTS
  -0.3000     47013
  -0.2800     50674
  -0.2600     63189
  -0.2400     74726
  -0.2200     86383
  -0.2000     96744
  -0.1800    107217
  -0.1600    118269
  -0.1400    128121
  -0.1200    137979
  -0.1000    148280
  -0.0800    158434
  -0.0600    167233
  -0.0400    177082
  -0.0200    187349
   0.0000    221287
   0.0200    210590
   0.0400    197129
   0.0600    185397
   0.0800    173634
   0.1000    160331
   0.1200    154110
   0.1400    138025
   0.1600    128766
   0.1800    118241
   0.2000    107114
   0.2200     97026
   0.2400     86045
   0.2600     74805
   0.2800     62625
   0.3000     49813

File: Rockingscan.UXD
; C:\DIFFDAT1\Praktikum\Boussard_Oppoli\Rockingscan.raw(Diffrac Plus V1.01 file) converted by XCH V1.0
_FILEVERSION=2
_SITE='Deutschland'
_USER='Administrator'
_GONIOMETER_CODE=4885
; D8 Theta/Theta; Special
_SAMPLE_CHANGER_CODE=0
_ATTACHMENTS_CODE=0
_GONIOMETER_RADIUS=350
_FIXED_DIVSLIT=0.600000
_FIXED_SAMPLESLIT=0.000000
_FIXED_DETSLIT=11.66
_MONOCHROMATOR=0
; None
_THIN_FILM='N'
_BETA_FILTER='Y'
_FIXED_ANTISLIT=8.340000
_ANALYZER_CODE=0
; None
_DATEMEASURED='22-Apr-2024 10:26:04'
_WL_UNIT='A'
_WL1=1.540600
_WL2=1.544390
_WL3=1.392220
_WLRATIO=0.500000
_ANODE='Cu'
; (Data for Range number 1)
_DRIVE='THETA'
_STEPTIME=1.000000
_STEPSIZE=0.040000
_STEPMODE='S'
_START=-1.000000
_THETA=-1.000000
_2THETA=0.000000
_KHI=0.000000
_PHI=92.46
_X=-0.513000
_Y=0.000000
_Z=0.240000
_DIVERGENCE=0.000000
_ANTISCATTER=0.000000
_DETECTOR=5
_DETECTORSLIT='unkn'
_AUX1=0.000000
_AUX2=0.000000
_AUX3=0.000000
_TIMESTARTED=3.000000
_TEMP_RATE=-1.000000
_TEMP_DELAY=-1.000000
_KV=40
_MA=35
_RANGE_WL=1.540600
_3DPLANE=0
_GONIOMETER=0.000000
_PSDCHANNEL0=0
_2THETACOUNTS
  -1.0000         0
  -0.9600         0
  -0.9200         0
  -0.8800         0
  -0.8400         0
  -0.8000         2
  -0.7600         0
  -0.7200         2
  -0.6800         2
  -0.6400         2
  -0.6000         4
  -0.5600        12
  -0.5200        23
  -0.4800        40
  -0.4400        57
  -0.4000       136
  -0.3600      1346
  -0.3200     13140
  -0.2800     36186
  -0.2400     63835
  -0.2000     89060
  -0.1600    112249
  -0.1200    135479
  -0.0800    157579
  -0.0400    178849
   0.0000    232323
   0.0400    205582
   0.0800    185002
   0.1200    166019
   0.1600    152206
   0.2000    125902
   0.2400    106755
   0.2800     86909
   0.3200     65390
   0.3600     41748
   0.4000     21455
   0.4400      7167
   0.4800       799
   0.5200       161
   0.5600        87
   0.6000        58
   0.6400        57
   0.6800        35
   0.7200        27
   0.7600        17
   0.8000         2
   0.8400         2
   0.8800         2
   0.9200         1
   0.9600         0
   1.0000         0

File: Rockingscan_2theta03.UXD
; C:\DIFFDAT1\Praktikum\Boussard_Oppoli\Rockingscan_2theta03.raw(Diffrac Plus V1.01 file) converted by XCH V1.0
_FILEVERSION=2
_SITE='Deutschland'
_USER='Administrator'
_GONIOMETER_CODE=4885
; D8 Theta/Theta; Special
_SAMPLE_CHANGER_CODE=0
_ATTACHMENTS_CODE=0
_GONIOMETER_RADIUS=350
_FIXED_DIVSLIT=0.600000
_FIXED_SAMPLESLIT=0.000000
_FIXED_DETSLIT=11.66
_MONOCHROMATOR=0
; None
_THIN_FILM='N'
_BETA_FILTER='Y'
_FIXED_ANTISLIT=8.340000
_ANALYZER_CODE=0
; None
_DATEMEASURED='22-Apr-2024 10:59:30'
_WL_UNIT='A'
_WL1=1.540600
_WL2=1.544390
_WL3=1.392220
_WLRATIO=0.500000
_ANODE='Cu'
; (Data for Range number 1)
_DRIVE='THETA'
_STEPTIME=1.000000
_STEPSIZE=0.005000
_STEPMODE='S'
_START=0.000000
_THETA=0.000000
_2THETA=0.300000
_KHI=0.000000
_PHI=92.46
_X=-0.513000
_Y=-1.200000
_Z=0.238000
_DIVERGENCE=0.000000
_ANTISCATTER=0.000000
_DETECTOR=5
_DETECTORSLIT='unkn'
_AUX1=0.000000
_AUX2=0.000000
_AUX3=0.000000
_TIMESTARTED=2.000000
_TEMP_RATE=-1.000000
_TEMP_DELAY=-1.000000
_KV=40
_MA=35
_RANGE_WL=1.540600
_3DPLANE=0
_GONIOMETER=0.300000
_PSDCHANNEL0=0
_2THETACOUNTS
   0.0000       424
   0.0050       416
   0.0100       440
   0.0150       425
   0.0200       521
   0.0250       469
   0.0300       484
   0.0350       504
   0.0400       590
   0.0450       637
   0.0500       637
   0.0550       737
   0.0600       867
   0.0650       942
   0.0700      1075
   0.0750      1289
   0.0800      1665
   0.0850      2317
   0.0900      2940
   0.0950      3529
   0.1000      4205
   0.1050      5479
   0.1100      7811
   0.1150     10522
   0.1200     13330
   0.1250     25433
   0.1300     58331
   0.1350     89012
   0.1400    112741
   0.1450    134990
   0.1500    151722
   0.1550    129593
   0.1600     76141
   0.1650     35618
   0.1700     18809
   0.1750     11042
   0.1800      8682
   0.1850      6853
   0.1900      5555
   0.1950      4429
   0.2000      3435
   0.2050      2742
   0.2100      2091
   0.2150      1662
   0.2200      1345
   0.2250      1151
   0.2300       939
   0.2350       831
   0.2400       697
   0.2450       593
   0.2500       569
   0.2550       510
   0.2600       471
   0.2650       441
   0.2700       429
   0.2750       469
   0.2800       459
   0.2850       406
   0.2900       397
   0.2950       438
   0.3000       441

File: Rockingscan_2theta05.UXD
; C:\DIFFDAT1\Praktikum\Boussard_Oppoli\Rockingscan_2theta05.raw(Diffrac Plus V1.01 file) converted by XCH V1.0
_FILEVERSION=2
_SITE='Deutschland'
_USER='Administrator'
_GONIOMETER_CODE=4885
; D8 Theta/Theta; Special
_SAMPLE_CHANGER_CODE=0
_ATTACHMENTS_CODE=0
_GONIOMETER_RADIUS=350
_FIXED_DIVSLIT=0.600000
_FIXED_SAMPLESLIT=0.000000
_FIXED_DETSLIT=11.66
_MONOCHROMATOR=0
; None
_THIN_FILM='N'
_BETA_FILTER='Y'
_FIXED_ANTISLIT=8.340000
_ANALYZER_CODE=0
; None
_DATEMEASURED='22-Apr-2024 11:06:11'
_WL_UNIT='A'
_WL1=1.540600
_WL2=1.544390
_WL3=1.392220
_WLRATIO=0.500000
_ANODE='Cu'
; (Data for Range number 1)
_DRIVE='THETA'
_STEPTIME=1.000000
_STEPSIZE=0.005000
_STEPMODE='S'
_START=0.200000
_THETA=0.200000
_2THETA=0.500000
_KHI=0.000000
_PHI=92.46
_X=-0.513000
_Y=-1.200000
_Z=0.238000
_DIVERGENCE=0.000000
_ANTISCATTER=0.000000
_DETECTOR=5
_DETECTORSLIT='unkn'
_AUX1=0.000000
_AUX2=0.000000
_AUX3=0.000000
_TIMESTARTED=2.000000
_TEMP_RATE=-1.000000
_TEMP_DELAY=-1.000000
_KV=40
_MA=35
_RANGE_WL=1.540600
_3DPLANE=0
_GONIOMETER=0.500000
_PSDCHANNEL0=0
_2THETACOUNTS
   0.2000       636
   0.2050       687
   0.2100       944
   0.2150      1280
   0.2200      1977
   0.2250      4054
   0.2300      8640
   0.2350     12563
   0.2400     15438
   0.2450     18533
   0.2500     20212
   0.2550     19863
   0.2600     14316
   0.2650      8861
   0.2700      6511
   0.2750      4234
   0.2800      2395
   0.2850      1738
   0.2900      1227
   0.2950       808
   0.3000       612
   0.3050       482
   0.3100       438
   0.3150       328
   0.3200       282
   0.3250       226
   0.3300       186
   0.3350       179
   0.3400       135
   0.3450       131
   0.3500       125
   0.3550       122
   0.3600        92
   0.3650        85
   0.3700        67
   0.3750        69
   0.3800        65
   0.3850        50
   0.3900        50
   0.3950        40
   0.4000        35
   0.4050        17
   0.4100        26
   0.4150        24
   0.4200        25
   0.4250        22
   0.4300        10
   0.4350        13
   0.4400         8
   0.4450         7
   0.4500         5
   0.4550         7
   0.4600         1
   0.4650         1
   0.4700         2
   0.4750         1
   0.4800         1
   0.4850         3
   0.4900         0
   0.4950         0
   0.5000         0

File: Xscan.UXD
; C:\DIFFDAT1\Praktikum\Boussard_Oppoli\Xscan.raw(Diffrac Plus V1.01 file) converted by XCH V1.0
_FILEVERSION=2
_SITE='Deutschland'
_USER='Administrator'
_GONIOMETER_CODE=4885
; D8 Theta/Theta; Special
_SAMPLE_CHANGER_CODE=0
_ATTACHMENTS_CODE=0
_GONIOMETER_RADIUS=350
_FIXED_DIVSLIT=0.600000
_FIXED_SAMPLESLIT=0.000000
_FIXED_DETSLIT=11.66
_MONOCHROMATOR=0
; None
_THIN_FILM='N'
_BETA_FILTER='Y'
_FIXED_ANTISLIT=8.340000
_ANALYZER_CODE=0
; None
_DATEMEASURED='22-Apr-2024 10:21:43'
_WL_UNIT='A'
_WL1=1.540600
_WL2=1.544390
_WL3=1.392220
_WLRATIO=0.500000
_ANODE='Cu'
; (Data for Range number 1)
_DRIVE='X'
_STEPTIME=1.000000
_STEPSIZE=1.000000
_STEPMODE='S'
_START=-20
_THETA=0.000000
_2THETA=0.000000
_KHI=0.000000
_PHI=92.46
_X=-20
_Y=0.000000
_Z=0.240000
_DIVERGENCE=0.000000
_ANTISCATTER=0.000000
_DETECTOR=5
_DETECTORSLIT='unkn'
_AUX1=0.000000
_AUX2=0.000000
_AUX3=0.000000
_TIMESTARTED=5.000000
_TEMP_RATE=-1.000000
_TEMP_DELAY=-1.000000
_KV=40
_MA=35
_RANGE_WL=1.540600
_3DPLANE=0
_GONIOMETER=0.000000
_PSDCHANNEL0=0
_2THETACOUNTS
 -20.0000    467064
 -19.0000    472420
 -18.0000    470240
 -17.0000    468731
 -16.0000    471433
 -15.0000    469979
 -14.0000    471962
 -13.0000    469315
 -12.0000    469868
 -11.0000    400862
 -10.0000    260787
  -9.0000    260076
  -8.0000    255660
  -7.0000    255352
  -6.0000    251299
  -5.0000    251275
  -4.0000    241922
  -3.0000    245461
  -2.0000    245406
  -1.0000    233358
   0.0000    240113
   1.0000    238185
   2.0000    234504
   3.0000    233729
   4.0000    232805
   5.0000    229542
   6.0000    227962
   7.0000    224455
   8.0000    219067
   9.0000    219715
  10.0000    423179
  11.0000    471606
  12.0000    473194
  13.0000    473178
  14.0000    471203
  15.0000    471512
  16.0000    471535
  17.0000    473368
  18.0000    468312
  19.0000    473953
  20.0000    470801

File: Zscan2.UXD
; C:\DIFFDAT1\Praktikum\Boussard_Oppoli\Zscan2.raw(Diffrac Plus V1.01 file) converted by XCH V1.0
_FILEVERSION=2
_SITE='Deutschland'
_USER='Administrator'
_GONIOMETER_CODE=4885
; D8 Theta/Theta; Special
_SAMPLE_CHANGER_CODE=0
_ATTACHMENTS_CODE=0
_GONIOMETER_RADIUS=350
_FIXED_DIVSLIT=0.600000
_FIXED_SAMPLESLIT=0.000000
_FIXED_DETSLIT=11.66
_MONOCHROMATOR=0
; None
_THIN_FILM='N'
_BETA_FILTER='Y'
_FIXED_ANTISLIT=8.340000
_ANALYZER_CODE=0
; None
_DATEMEASURED='22-Apr-2024 10:42:48'
_WL_UNIT='A'
_WL1=1.540600
_WL2=1.544390
_WL3=1.392220
_WLRATIO=0.500000
_ANODE='Cu'
; (Data for Range number 1)
_DRIVE='Z'
_STEPTIME=0.500000
_STEPSIZE=0.020000
_STEPMODE='S'
_START=-0.500000
_THETA=0.000000
_2THETA=0.000000
_KHI=0.000000
_PHI=92.46
_X=-0.513000
_Y=-1.100000
_Z=-0.500000
_DIVERGENCE=0.000000
_ANTISCATTER=0.000000
_DETECTOR=5
_DETECTORSLIT='unkn'
_AUX1=0.000000
_AUX2=0.000000
_AUX3=0.000000
_TIMESTARTED=3.000000
_TEMP_RATE=-1.000000
_TEMP_DELAY=-1.000000
_KV=40
_MA=35
_RANGE_WL=1.540600
_3DPLANE=0
_GONIOMETER=0.000000
_PSDCHANNEL0=0
_2THETACOUNTS
  -0.5000    233761
  -0.4800    235381
  -0.4600    232529
  -0.4400    235317
  -0.4200    235570
  -0.4000    232797
  -0.3800    234772
  -0.3600    235025
  -0.3400    235183
  -0.3200    233627
  -0.3000    234211
  -0.2800    234235
  -0.2600    233279
  -0.2400    233121
  -0.2200    235207
  -0.2000    234646
  -0.1800    233240
  -0.1600    231897
  -0.1400    233951
  -0.1200    233058
  -0.1000    233698
  -0.0800    233690
  -0.0600    232307
  -0.0400    233982
  -0.0200    235562
   0.0000    237174
   0.0200    237893
   0.0400    236052
   0.0600    236747
   0.0800    238114
   0.1000    236400
   0.1200    237719
   0.1400    239504
   0.1600    237956
   0.1800    218103
   0.2000    184821
   0.2200    152510
   0.2400    114503
   0.2600     80517
   0.2800     47676
   0.3000     19773
   0.3200      1012
   0.3400        59
   0.3600        20
   0.3800         1
   0.4000         2
   0.4200         3
   0.4400         6
   0.4600         4
   0.4800         9
   0.5000        16

File: Zscan.UXD
; C:\DIFFDAT1\Praktikum\Boussard_Oppoli\Zscan.raw(Diffrac Plus V1.01 file) converted by XCH V1.0
_FILEVERSION=2
_SITE='Deutschland'
_USER='Administrator'
_GONIOMETER_CODE=4885
; D8 Theta/Theta; Special
_SAMPLE_CHANGER_CODE=0
_ATTACHMENTS_CODE=0
_GONIOMETER_RADIUS=350
_FIXED_DIVSLIT=0.600000
_FIXED_SAMPLESLIT=0.000000
_FIXED_DETSLIT=11.66
_MONOCHROMATOR=0
; None
_THIN_FILM='N'
_BETA_FILTER='Y'
_FIXED_ANTISLIT=8.340000
_ANALYZER_CODE=0
; None
_DATEMEASURED='22-Apr-2024 10:15:05'
_WL_UNIT='A'
_WL1=1.540600
_WL2=1.544390
_WL3=1.392220
_WLRATIO=0.500000
_ANODE='Cu'
; (Data for Range number 1)
_DRIVE='Z'
_STEPTIME=0.500000
_STEPSIZE=0.040000
_STEPMODE='S'
_START=-1.000000
_THETA=0.000000
_2THETA=0.000000
_KHI=0.000000
_PHI=92.46
_X=0.000000
_Y=0.000000
_Z=-1.000000
_DIVERGENCE=0.000000
_ANTISCATTER=0.000000
_DETECTOR=5
_DETECTORSLIT='unkn'
_AUX1=0.000000
_AUX2=0.000000
_AUX3=0.000000
_TIMESTARTED=6.000000
_TEMP_RATE=-1.000000
_TEMP_DELAY=-1.000000
_KV=40
_MA=35
_RANGE_WL=1.540600
_3DPLANE=0
_GONIOMETER=0.000000
_PSDCHANNEL0=0
_2THETACOUNTS
  -1.0000    236984
  -0.9600    237419
  -0.9200    236779
  -0.8800    234306
  -0.8400    236487
  -0.8000    234970
  -0.7600    236202
  -0.7200    235981
  -0.6800    236724
  -0.6400    238359
  -0.6000    237119
  -0.5600    236265
  -0.5200    236313
  -0.4800    238311
  -0.4400    236676
  -0.4000    233737
  -0.3600    236526
  -0.3200    236850
  -0.2800    237569
  -0.2400    235065
  -0.2000    236534
  -0.1600    235594
  -0.1200    237063
  -0.0800    238943
  -0.0400    239702
   0.0000    238185
   0.0400    239433
   0.0800    238493
   0.1200    240650
   0.1600    241155
   0.2000    187119
   0.2400    117702
   0.2800     48888
   0.3200       488
   0.3600         8
   0.4000         1
   0.4400         7
   0.4800        10
   0.5200        28
   0.5600        55
   0.6000       145
   0.6400       306
   0.6800       638
   0.7200      1175
   0.7600      2260
   0.8000      3556
   0.8400      5789
   0.8800     32215
   0.9200     38240
   0.9600     37601
   1.0000     25161

File: Zscan_2theta03.UXD
; C:\DIFFDAT1\Praktikum\Boussard_Oppoli\Zscan_2theta03.raw(Diffrac Plus V1.01 file) converted by XCH V1.0
_FILEVERSION=2
_SITE='Deutschland'
_USER='Administrator'
_GONIOMETER_CODE=4885
; D8 Theta/Theta; Special
_SAMPLE_CHANGER_CODE=0
_ATTACHMENTS_CODE=0
_GONIOMETER_RADIUS=350
_FIXED_DIVSLIT=0.600000
_FIXED_SAMPLESLIT=0.000000
_FIXED_DETSLIT=11.66
_MONOCHROMATOR=0
; None
_THIN_FILM='N'
_BETA_FILTER='Y'
_FIXED_ANTISLIT=8.340000
_ANALYZER_CODE=0
; None
_DATEMEASURED='22-Apr-2024 11:03:02'
_WL_UNIT='A'
_WL1=1.540600
_WL2=1.544390
_WL3=1.392220
_WLRATIO=0.500000
_ANODE='Cu'
; (Data for Range number 1)
_DRIVE='Z'
_STEPTIME=0.500000
_STEPSIZE=0.020000
_STEPMODE='S'
_START=-0.500000
_THETA=0.000000
_2THETA=0.300000
_KHI=0.000000
_PHI=92.46
_X=-0.513000
_Y=-1.200000
_Z=-0.500000
_DIVERGENCE=0.000000
_ANTISCATTER=0.000000
_DETECTOR=5
_DETECTORSLIT='unkn'
_AUX1=0.000000
_AUX2=0.000000
_AUX3=0.000000
_TIMESTARTED=2.000000
_TEMP_RATE=-1.000000
_TEMP_DELAY=-1.000000
_KV=40
_MA=35
_RANGE_WL=1.540600
_3DPLANE=0
_GONIOMETER=0.300000
_PSDCHANNEL0=0
_2THETACOUNTS
  -0.5000       200
  -0.4800       190
  -0.4600       189
  -0.4400       189
  -0.4200       190
  -0.4000       186
  -0.3800       202
  -0.3600       203
  -0.3400       193
  -0.3200       200
  -0.3000       182
  -0.2800       181
  -0.2600       196
  -0.2400       212
  -0.2200       171
  -0.2000       183
  -0.1800       178
  -0.1600       217
  -0.1400       204
  -0.1200       201
  -0.1000       190
  -0.0800       193
  -0.0600       214
  -0.0400       220
  -0.0200       208
   0.0000       214
   0.0200       179
   0.0400       200
   0.0600       187
   0.0800       205
   0.1000       199
   0.1200       184
   0.1400       193
   0.1600       204
   0.1800       202
   0.2000       191
   0.2200       224
   0.2400       216
   0.2600       205
   0.2800       196
   0.3000       192
   0.3200       211
   0.3400       201
   0.3600       180
   0.3800       216
   0.4000       197
   0.4200       236
   0.4400       186
   0.4600       199
   0.4800       219
   0.5000       227